[
  {
    "resourceType": "Bundle",
    "id": "bundle-1758740752870",
    "type": "collection",
    "timestamp": "2025-09-24T19:05:52.870Z",
    "entry": [
      {
        "fullUrl": "Patient/12-3456-7890-1234",
        "resource": {
          "resourceType": "Patient",
          "id": "12-3456-7890-1234",
          "identifier": [
            {
              "system": "https://healthid.ndhm.gov.in",
              "value": "12-3456-7890-1234"
            }
          ],
          "name": [
            {
              "family": "Doe",
              "given": [
                "Patient1"
              ]
            }
          ],
          "gender": "male",
          "birthDate": "1990-01-10",
          "telecom": [
            {
              "system": "phone",
              "value": "9876543200"
            },
            {
              "system": "email",
              "value": "patient1@example.com"
            }
          ]
        }
      },
      {
        "fullUrl": "Condition/12-3456-7890-1234-0",
        "resource": {
          "resourceType": "Condition",
          "id": "12-3456-7890-1234-0",
          "subject": {
            "reference": "Patient/12-3456-7890-1234"
          },
          "code": {
            "coding": [
              {
                "system": "http://namaste.terminology.system",
                "code": "ABB-13",
                "display": "kAmalA (kEvalapitta)"
              },
              {
                "system": "http://id.who.int/icd/release/11/mms",
                "code": "Unknown",
                "display": "No mapping found"
              },
              {
                "system": "http://icd.biomedicine.system",
                "code": "Unknown",
                "display": "No mapping found"
              }
            ]
          },
          "clinicalStatus": {
            "coding": [
              {
                "system": "http://terminology.hl7.org/CodeSystem/condition-clinical",
                "code": "active"
              }
            ]
          },
          "recordedDate": "2025-09-24T19:05:52.870Z"
        }
      }
    ]
  },
  {
    "resourceType": "Bundle",
    "id": "bundle-1758778312540",
    "type": "collection",
    "timestamp": "2025-09-25T05:31:52.540Z",
    "entry": [
      {
        "fullUrl": "Patient/23-4567-8901-2345",
        "resource": {
          "resourceType": "Patient",
          "id": "23-4567-8901-2345",
          "identifier": [
            {
              "system": "https://healthid.ndhm.gov.in",
              "value": "23-4567-8901-2345"
            }
          ],
          "name": [
            {
              "family": "Doe",
              "given": [
                "Patient2"
              ]
            }
          ],
          "gender": "female",
          "birthDate": "1991-02-11",
          "telecom": [
            {
              "system": "phone",
              "value": "9876543211"
            },
            {
              "system": "email",
              "value": "patient2@example.com"
            }
          ]
        }
      },
      {
        "fullUrl": "Condition/23-4567-8901-2345-0",
        "resource": {
          "resourceType": "Condition",
          "id": "23-4567-8901-2345-0",
          "subject": {
            "reference": "Patient/23-4567-8901-2345"
          },
          "code": {
            "coding": [
              {
                "system": "http://namaste.terminology.system",
                "code": "SR43(BB-2)",
                "display": "raktavRuddhiH"
              },
              {
                "system": "http://tm2.terminology.system",
                "code": "TM2-100",
                "display": "Jaundice (Pittaja type)"
              }
            ]
          },
          "clinicalStatus": {
            "coding": [
              {
                "system": "http://terminology.hl7.org/CodeSystem/condition-clinical",
                "code": "active"
              }
            ]
          },
          "recordedDate": "2025-09-25T05:31:52.540Z"
        }
      }
    ]
  },
  {
    "resourceType": "Bundle",
    "id": "bundle-1758778673591",
    "type": "collection",
    "timestamp": "2025-09-25T05:37:53.591Z",
    "entry": [
      {
        "fullUrl": "Patient/23-4567-8901-2345",
        "resource": {
          "resourceType": "Patient",
          "id": "23-4567-8901-2345",
          "identifier": [
            {
              "system": "https://healthid.ndhm.gov.in",
              "value": "23-4567-8901-2345"
            }
          ],
          "name": [
            {
              "family": "Doe",
              "given": [
                "Patient2"
              ]
            }
          ],
          "gender": "female",
          "birthDate": "1991-02-11",
          "telecom": [
            {
              "system": "phone",
              "value": "9876543211"
            },
            {
              "system": "email",
              "value": "patient2@example.com"
            }
          ]
        }
      },
      {
        "fullUrl": "Condition/23-4567-8901-2345-0",
        "resource": {
          "resourceType": "Condition",
          "id": "23-4567-8901-2345-0",
          "subject": {
            "reference": "Patient/23-4567-8901-2345"
          },
          "code": {
            "coding": [
              {
                "system": "http://namaste.terminology.system",
                "code": "ABB-13",
                "display": "kAmalA (kEvalapitta)"
              },
              {
                "system": "http://tm2.terminology.system",
                "code": "TM2-100",
                "display": "Jaundice (Pittaja type)"
              },
              {
                "system": "http://biomedicine.terminology.system",
                "code": "MD90.0",
                "display": "Jaundice (Pittaja type)"
              }
            ]
          },
          "clinicalStatus": {
            "coding": [
              {
                "system": "http://terminology.hl7.org/CodeSystem/condition-clinical",
                "code": "active"
              }
            ]
          },
          "recordedDate": "2025-09-25T05:37:53.592Z"
        }
      }
    ]
  },
  {
    "resourceType": "Bundle",
    "id": "bundle-1758779984817",
    "type": "collection",
    "timestamp": "2025-09-25T05:59:44.817Z",
    "entry": [
      {
        "fullUrl": "Patient/23-4567-8901-2345",
        "resource": {
          "resourceType": "Patient",
          "id": "23-4567-8901-2345",
          "identifier": [
            {
              "system": "https://healthid.ndhm.gov.in",
              "value": "23-4567-8901-2345"
            }
          ],
          "name": [
            {
              "family": "Doe",
              "given": [
                "Patient2"
              ]
            }
          ],
          "gender": "female",
          "birthDate": "1991-02-11",
          "telecom": [
            {
              "system": "phone",
              "value": "9876543211"
            },
            {
              "system": "email",
              "value": "patient2@example.com"
            }
          ]
        }
      },
      {
        "fullUrl": "Condition/23-4567-8901-2345-0",
        "resource": {
          "resourceType": "Condition",
          "id": "23-4567-8901-2345-0",
          "subject": {
            "reference": "Patient/23-4567-8901-2345"
          },
          "code": {
            "coding": [
              {
                "system": "http://namaste.terminology.system",
                "code": "F-60",
                "display": "عظم الكبد"
              },
              {
                "system": "http://tm2.terminology.system",
                "code": "TM2-060",
                "display": "Malaria"
              },
              {
                "system": "http://biomedicine.terminology.system",
                "code": "1F40",
                "display": "Malaria"
              }
            ]
          },
          "clinicalStatus": {
            "coding": [
              {
                "system": "http://terminology.hl7.org/CodeSystem/condition-clinical",
                "code": "active"
              }
            ]
          },
          "note": [
            {
              "text": "Malaria"
            }
          ],
          "recordedDate": "2025-09-25T05:59:44.817Z"
        }
      }
    ]
  },
  {
    "resourceType": "Bundle",
    "id": "bundle-1758788592493",
    "type": "collection",
    "timestamp": "2025-09-25T08:23:12.493Z",
    "entry": [
      {
        "fullUrl": "Patient/23-4567-8901-2345",
        "resource": {
          "resourceType": "Patient",
          "id": "23-4567-8901-2345",
          "identifier": [
            {
              "system": "https://healthid.ndhm.gov.in",
              "value": "23-4567-8901-2345"
            }
          ],
          "name": [
            {
              "family": "Doe",
              "given": [
                "Patient2"
              ]
            }
          ],
          "gender": "female",
          "birthDate": "1991-02-11",
          "telecom": [
            {
              "system": "phone",
              "value": "9876543211"
            },
            {
              "system": "email",
              "value": "patient2@example.com"
            }
          ]
        }
      },
      {
        "fullUrl": "Condition/23-4567-8901-2345-0",
        "resource": {
          "resourceType": "Condition",
          "id": "23-4567-8901-2345-0",
          "subject": {
            "reference": "Patient/23-4567-8901-2345"
          },
          "code": {
            "coding": [
              {
                "system": "http://namaste.terminology.system",
                "code": "SR14 (AAA-4)",
                "display": "vAtakShayaH"
              },
              {
                "system": "http://tm2.terminology.system",
                "code": "TM2-001",
                "display": "Depletion of vata pattern "
              },
              {
                "system": "http://biomedicine.terminology.system",
                "code": "1B10",
                "display": "Depletion of vata pattern "
              }
            ]
          },
          "clinicalStatus": {
            "coding": [
              {
                "system": "http://terminology.hl7.org/CodeSystem/condition-clinical",
                "code": "active"
              }
            ]
          },
          "note": [
            {
              "text": "Tuberculosis"
            }
          ],
          "recordedDate": "2025-09-25T08:23:12.493Z"
        }
      }
    ]
  },
  {
    "resourceType": "Bundle",
    "id": "bundle-1758794316983",
    "type": "collection",
    "timestamp": "2025-09-25T09:58:36.983Z",
    "entry": [
      {
        "fullUrl": "Patient/23-4567-8901-2345",
        "resource": {
          "resourceType": "Patient",
          "id": "23-4567-8901-2345",
          "identifier": [
            {
              "system": "https://healthid.ndhm.gov.in",
              "value": "23-4567-8901-2345"
            }
          ],
          "name": [
            {
              "family": "Doe",
              "given": [
                "Patient2"
              ]
            }
          ],
          "gender": "female",
          "birthDate": "1991-02-11",
          "telecom": [
            {
              "system": "phone",
              "value": "9876543211"
            },
            {
              "system": "email",
              "value": "patient2@example.com"
            }
          ]
        }
      },
      {
        "fullUrl": "Condition/23-4567-8901-2345-0",
        "resource": {
          "resourceType": "Condition",
          "id": "23-4567-8901-2345-0",
          "subject": {
            "reference": "Patient/23-4567-8901-2345"
          },
          "code": {
            "coding": [
              {
                "system": "http://namaste.terminology.system",
                "code": "SR43(BB-2)",
                "display": "raktavRuddhiH"
              },
              {
                "system": "http://tm2.terminology.system",
                "code": "TM2-100",
                "display": "Jaundice (Pittaja type)"
              },
              {
                "system": "http://biomedicine.terminology.system",
                "code": "MD90.0",
                "display": "Jaundice (Pittaja type)"
              }
            ]
          },
          "clinicalStatus": {
            "coding": [
              {
                "system": "http://terminology.hl7.org/CodeSystem/condition-clinical",
                "code": "active"
              }
            ]
          },
          "note": [
            {
              "text": "Jaundice"
            }
          ],
          "recordedDate": "2025-09-25T09:58:36.986Z"
        }
      }
    ]
  },
  {
    "resourceType": "Bundle",
    "id": "bundle-1758794731269",
    "type": "collection",
    "timestamp": "2025-09-25T10:05:31.269Z",
    "entry": [
      {
        "fullUrl": "Patient/23-4567-8901-2345",
        "resource": {
          "resourceType": "Patient",
          "id": "23-4567-8901-2345",
          "identifier": [
            {
              "system": "https://healthid.ndhm.gov.in",
              "value": "23-4567-8901-2345"
            }
          ],
          "name": [
            {
              "family": "Doe",
              "given": [
                "Patient2"
              ]
            }
          ],
          "gender": "female",
          "birthDate": "1991-02-11",
          "telecom": [
            {
              "system": "phone",
              "value": "9876543211"
            },
            {
              "system": "email",
              "value": "patient2@example.com"
            }
          ]
        }
      },
      {
        "fullUrl": "Condition/23-4567-8901-2345-0",
        "resource": {
          "resourceType": "Condition",
          "id": "23-4567-8901-2345-0",
          "subject": {
            "reference": "Patient/23-4567-8901-2345"
          },
          "code": {
            "coding": [
              {
                "system": "http://namaste.terminology.system",
                "code": "ABB-13",
                "display": "kAmalA (kEvalapitta)"
              },
              {
                "system": "http://tm2.terminology.system",
                "code": "TM2-100",
                "display": "Jaundice (Pittaja type)"
              },
              {
                "system": "http://biomedicine.terminology.system",
                "code": "MD90.0",
                "display": "Jaundice (Pittaja type)"
              }
            ]
          },
          "clinicalStatus": {
            "coding": [
              {
                "system": "http://terminology.hl7.org/CodeSystem/condition-clinical",
                "code": "active"
              }
            ]
          },
          "note": [
            {
              "text": "Jaundice"
            }
          ],
          "recordedDate": "2025-09-25T10:05:31.269Z"
        }
      },
      {
        "fullUrl": "Condition/23-4567-8901-2345-1",
        "resource": {
          "resourceType": "Condition",
          "id": "23-4567-8901-2345-1",
          "subject": {
            "reference": "Patient/23-4567-8901-2345"
          },
          "code": {
            "coding": [
              {
                "system": "http://namaste.terminology.system",
                "code": "SR43(BB-2)",
                "display": "raktavRuddhiH"
              },
              {
                "system": "http://tm2.terminology.system",
                "code": "TM2-100",
                "display": "Jaundice (Pittaja type)"
              },
              {
                "system": "http://biomedicine.terminology.system",
                "code": "MD90.0",
                "display": "Jaundice (Pittaja type)"
              }
            ]
          },
          "clinicalStatus": {
            "coding": [
              {
                "system": "http://terminology.hl7.org/CodeSystem/condition-clinical",
                "code": "active"
              }
            ]
          },
          "note": [
            {
              "text": "Jaundice"
            }
          ],
          "recordedDate": "2025-09-25T10:05:31.269Z"
        }
      },
      {
        "fullUrl": "Condition/23-4567-8901-2345-2",
        "resource": {
          "resourceType": "Condition",
          "id": "23-4567-8901-2345-2",
          "subject": {
            "reference": "Patient/23-4567-8901-2345"
          },
          "code": {
            "coding": [
              {
                "system": "http://namaste.terminology.system",
                "code": "EC-4.2.2",
                "display": "daurgandhya-kShIradoShaH"
              },
              {
                "system": "http://tm2.terminology.system",
                "code": "TM2-100",
                "display": "Jaundice (Pittaja type)"
              },
              {
                "system": "http://biomedicine.terminology.system",
                "code": "MD90.0",
                "display": "Jaundice (Pittaja type)"
              }
            ]
          },
          "clinicalStatus": {
            "coding": [
              {
                "system": "http://terminology.hl7.org/CodeSystem/condition-clinical",
                "code": "active"
              }
            ]
          },
          "note": [
            {
              "text": "Jaundice"
            }
          ],
          "recordedDate": "2025-09-25T10:05:31.269Z"
        }
      }
    ]
  },
  {
    "resourceType": "Bundle",
    "id": "bundle-1758797339302",
    "type": "collection",
    "timestamp": "2025-09-25T10:48:59.302Z",
    "entry": [
      {
        "fullUrl": "Patient/23-4567-8901-2345",
        "resource": {
          "resourceType": "Patient",
          "id": "23-4567-8901-2345",
          "identifier": [
            {
              "system": "https://healthid.ndhm.gov.in",
              "value": "23-4567-8901-2345"
            }
          ],
          "name": [
            {
              "family": "Patel",
              "given": [
                "Priya"
              ]
            }
          ],
          "gender": "female",
          "birthDate": "1992-07-22",
          "telecom": [
            {
              "system": "phone",
              "value": "+919876543212"
            },
            {
              "system": "email",
              "value": "priya.patel@example.com"
            }
          ]
        }
      },
      {
        "fullUrl": "Condition/23-4567-8901-2345-0",
        "resource": {
          "resourceType": "Condition",
          "id": "23-4567-8901-2345-0",
          "subject": {
            "reference": "Patient/23-4567-8901-2345"
          },
          "code": {
            "coding": [
              {
                "system": "http://namaste.terminology.system",
                "code": "F-60",
                "display": "عظم الكبد"
              },
              {
                "system": "http://tm2.terminology.system",
                "code": "TM2-060",
                "display": "Malaria"
              },
              {
                "system": "http://biomedicine.terminology.system",
                "code": "1F40",
                "display": "Malaria"
              }
            ]
          },
          "clinicalStatus": {
            "coding": [
              {
                "system": "http://terminology.hl7.org/CodeSystem/condition-clinical",
                "code": "active"
              }
            ]
          },
          "note": [
            {
              "text": "Malaria"
            }
          ],
          "recordedDate": "2025-09-25T10:48:59.302Z"
        }
      }
    ]
  }
]